Folder: EDX-Simplifier

Note: README.md
# EDX-Simplifier
Short Script to Trim Clunky EDX Data
Inputs the .txt automatically generated by the Oxford Instruments EDS software and trims the data to make it slightly easier to process in origin.
Also makes a .png of the spectrum for fun.

File: Map Sum Spectrum.txt
#FORMAT      : EMSA/MAS Spectral Data File
#VERSION     : 1.0
#TITLE       : Map Sum Spectrum
#DATE        : 04-SEP-2020
#TIME        : 10:07
#OWNER       :
#NPOINTS     : 1024.0
#NCOLUMNS    : 1.0
#XUNITS      : keV
#YUNITS      : counts
#DATATYPE    : XY
#XPERCHAN    : 0.01
#OFFSET      : -0.1
#SIGNALTYPE  : EDS
#CHOFFSET    : 10.0
#LIVETIME    : 314.573
#REALTIME    : 398.648
#BEAMKV      : 15.0
#MAGCAM      : 10000.0
#XTILTSTGE   : 0.0
#AZIMANGLE   : 0.0
#ELEVANGLE   : 29.0
#XPOSITION mm: -0.2765
#YPOSITION mm: -0.2468
#ZPOSITION mm: 11.0512
##OXINSTPT   : 4
##OXINSTSTROB: 45.93
##OXINSTELEMS: 8,6,29,14,79,22
##OXINSTLABEL: 8, 0.525, O
##OXINSTLABEL: 6, 0.277, C
##OXINSTLABEL: 29, 8.048, Cu
##OXINSTLABEL: 29, 8.905, Cu
##OXINSTLABEL: 29, 0.930, Cu
##OXINSTLABEL: 29, 0.832, Cu
##OXINSTLABEL: 29, 0.811, Cu
##OXINSTLABEL: 14, 1.740, Si
##OXINSTLABEL: 79, 9.713, Au
##OXINSTLABEL: 79, 8.494, Au
##OXINSTLABEL: 79, 2.123, Au
##OXINSTLABEL: 79, 2.410, Au
##OXINSTLABEL: 79, 1.648, Au
##OXINSTLABEL: 79, 0.265, Au
##OXINSTLABEL: 79, 0.251, Au
##OXINSTLABEL: 22, 4.511, Ti
##OXINSTLABEL: 22, 4.932, Ti
##OXINSTLABEL: 22, 0.452, Ti
##OXINSTLABEL: 22, 0.395, Ti
#SPECTRUM    : Spectral Data Starts Here
-0.10000, 0.0
-0.06000, 19.0
-0.02000, 1747.0
0.02000, 4533.0
0.06000, 518.0
0.10000, 2840.0
0.14000, 9106.0
0.18000, 11217.0
0.22000, 18453.0
0.26000, 52294.0
0.30000, 26147.0
0.34000, 7445.0
0.38000, 13437.0
0.42000, 10706.0
0.46000, 13424.0
0.50000, 18200.0
0.54000, 16819.0
0.58000, 9485.0
0.62000, 9850.0
0.66000, 11437.0
0.70000, 12495.0
0.74000, 13286.0
0.78000, 14818.0
0.82000, 16586.0
0.86000, 17810.0
0.90000, 24319.0
0.94000, 31179.0
0.98000, 23009.0
1.02000, 19754.0
1.06000, 19762.0
1.10000, 20131.0
1.14000, 19826.0
1.18000, 19796.0
1.22000, 20191.0
1.26000, 20422.0
1.30000, 20532.0
1.34000, 20640.0
1.38000, 21199.0
1.42000, 21771.0
1.46000, 24623.0
1.50000, 26371.0
1.54000, 24238.0
1.58000, 25201.0
1.62000, 37310.0
1.66000, 82625.0
1.70000, 341483.0
1.74000, 687642.0
1.78000, 391816.0
1.82000, 97663.0
1.86000, 43667.0
1.90000, 23844.0
1.94000, 20306.0
1.98000, 22682.0
2.02000, 30116.0
2.06000, 86432.0
2.10000, 259339.0
2.14000, 342851.0
2.18000, 265911.0
2.22000, 205304.0
2.26000, 87533.0
2.30000, 23406.0
2.34000, 15325.0
2.38000, 21535.0
2.42000, 24595.0
2.46000, 17734.0
2.50000, 11937.0
2.54000, 10727.0
2.58000, 10687.0
2.62000, 11275.0
2.66000, 11502.0
2.70000, 11796.0
2.74000, 12999.0
2.78000, 14062.0
2.82000, 13460.0
2.86000, 11695.0
2.90000, 10795.0
2.94000, 10300.0
2.98000, 9992.0
3.02000, 9910.0
3.06000, 10019.0
3.10000, 10068.0
3.14000, 10155.0
3.18000, 10076.0
3.22000, 9758.0
3.26000, 9665.0
3.30000, 9730.0
3.34000, 9923.0
3.38000, 10109.0
3.42000, 10754.0
3.46000, 12038.0
3.50000, 12233.0
3.54000, 10780.0
3.58000, 9793.0
3.62000, 9548.0
3.66000, 9396.0
3.70000, 9313.0
3.74000, 9270.0
3.78000, 9667.0
3.82000, 10762.0
3.86000, 12107.0
3.90000, 12205.0
3.94000, 11534.0
3.98000, 10430.0
4.02000, 9300.0
4.06000, 8725.0
4.10000, 8556.0
4.14000, 8649.0
4.18000, 8809.0
4.22000, 9099.0
4.26000, 9268.0
4.30000, 9353.0
4.34000, 9131.0
4.38000, 8859.0
4.42000, 8973.0
4.46000, 9763.0
4.50000, 10953.0
4.54000, 10542.0
4.58000, 8987.0
4.62000, 7905.0
4.66000, 7679.0
4.70000, 7530.0
4.74000, 7428.0
4.78000, 7400.0
4.82000, 7395.0
4.86000, 7545.0
4.90000, 7513.0
4.94000, 7539.0
4.98000, 7473.0
5.02000, 7124.0
5.06000, 7016.0
5.10000, 7023.0
5.14000, 6858.0
5.18000, 6851.0
5.22000, 6758.0
5.26000, 6867.0
5.30000, 6726.0
5.34000, 6680.0
5.38000, 6548.0
5.42000, 6463.0
5.46000, 6515.0
5.50000, 6612.0
5.54000, 6473.0
5.58000, 6423.0
5.62000, 6431.0
5.66000, 6319.0
5.70000, 6217.0
5.74000, 6194.0
5.78000, 6123.0
5.82000, 6136.0
5.86000, 6000.0
5.90000, 5978.0
5.94000, 5985.0
5.98000, 5874.0
6.02000, 5852.0
6.06000, 5923.0
6.10000, 5813.0
6.14000, 5755.0
6.18000, 5769.0
6.22000, 5686.0
6.26000, 5730.0
6.30000, 5665.0
6.34000, 5603.0
6.38000, 5426.0
6.42000, 5571.0
6.46000, 5410.0
6.50000, 5245.0
6.54000, 5364.0
6.58000, 5278.0
6.62000, 5346.0
6.66000, 5257.0
6.70000, 5205.0
6.74000, 5194.0
6.78000, 5138.0
6.82000, 5010.0
6.86000, 5065.0
6.90000, 4906.0
6.94000, 4762.0
6.98000, 4860.0
7.02000, 4754.0
7.06000, 4884.0
7.10000, 4843.0
7.14000, 4615.0
7.18000, 4706.0
7.22000, 4615.0
7.26000, 4618.0
7.30000, 4680.0
7.34000, 4543.0
7.38000, 4569.0
7.42000, 4557.0
7.46000, 4487.0
7.50000, 4412.0
7.54000, 4470.0
7.58000, 4421.0
7.62000, 4386.0
7.66000, 4279.0
7.70000, 4293.0
7.74000, 4298.0
7.78000, 4202.0
7.82000, 4188.0
7.86000, 4158.0
7.90000, 4156.0
7.94000, 4614.0
7.98000, 4859.0
8.02000, 5220.0
8.06000, 5058.0
8.10000, 4661.0
8.14000, 4362.0
8.18000, 3987.0
8.22000, 3990.0
8.26000, 3966.0
8.30000, 3932.0
8.34000, 3821.0
8.38000, 3966.0
8.42000, 4131.0
8.46000, 4331.0
8.50000, 4362.0
8.54000, 4107.0
8.58000, 3882.0
8.62000, 3738.0
8.66000, 3590.0
8.70000, 3571.0
8.74000, 3466.0
8.78000, 3528.0
8.82000, 3608.0
8.86000, 3620.0
8.90000, 3644.0
8.94000, 3551.0
8.98000, 3446.0
9.02000, 3408.0
9.06000, 3398.0
9.10000, 3267.0
9.14000, 3240.0
9.18000, 3316.0
9.22000, 3286.0
9.26000, 3294.0
9.30000, 3174.0
9.34000, 3130.0
9.38000, 3227.0
9.42000, 3178.0
9.46000, 3251.0
9.50000, 3485.0
9.54000, 4172.0
9.58000, 5793.0
9.62000, 8834.0
9.66000, 12246.0
9.70000, 14008.0
9.74000, 12799.0
9.78000, 9346.0
9.82000, 5851.0
9.86000, 3909.0
9.90000, 3149.0
9.94000, 2818.0
9.98000, 2856.0
10.02000, 2785.0
10.06000, 2759.0
10.10000, 2690.0
10.13000, 2751.0
#ENDOFDATA   :